white pet tray with circles
Integration time [ms]:  15,000
Averaging Nr. [scans]: 10
Smoothing Nr. [pixels]: 0
Data measured with spectrometer [name]: 1204091U1
Wave   ;Sample   ;Dark     ;Reference;Reflectance
[nm]   ;[counts] ;[counts] ;[counts] ;[%]

1014,48;16791,500; 2348,500;19637,500;83,53867
1019,01;17725,400; 2352,700;20829,700;83,19911
1023,54;18606,300; 2377,000;21962,200;82,86512
1028,07;19420,800; 2352,700;23028,700;82,55030
1032,59;20306,500; 2345,300;24165,800;82,31342
1037,10;21421,900; 2317,300;25614,800;82,00279
1041,62;22332,000; 2350,000;26799,400;81,72798
1046,12;23313,000; 2427,500;28080,800;81,41448
1050,62;23906,900; 2344,700;28925,600;81,11915
1055,12;24532,000; 2300,600;29808,600;80,81794
1059,62;25228,100; 2304,000;30750,500;80,58672
1064,10;26126,700; 2352,400;31934,300;80,36772
1068,59;26808,700; 2395,400;32879,900;80,08431
1073,07;27615,800; 2329,700;33988,100;79,87169
1077,54;28258,800; 2333,200;34909,400;79,58448
1082,01;29063,400; 2383,100;36084,400;79,16698
1086,48;29644,500; 2367,300;37013,200;78,73139
1090,94;30001,600; 2303,100;37697,100;78,25761
1095,39;30830,000; 2435,000;38991,300;77,67471
1099,85;31433,700; 2333,800;40179,000;76,89192
1104,29;31804,300; 2343,900;41108,400;75,99840
1108,73;32113,400; 2303,100;42037,300;75,02429
1113,17;32227,700; 2407,700;42761,500;73,89639
1117,61;32209,100; 2355,500;43454,900;72,63756
1122,03;32148,800; 2409,900;44116,600;71,30485
1126,46;32080,300; 2310,600;44683,800;70,25596
1130,88;32326,500; 2301,200;45196,100;69,99737
1135,29;33061,600; 2423,100;45857,400;70,53987
1139,70;33802,400; 2288,100;46461,700;71,34193
1144,11;34376,300; 2306,000;47061,800;71,65619
1148,51;34706,600; 2313,600;47677,600;71,40684
1152,90;34666,000; 2332,800;47946,200;70,88531
1157,29;34705,100; 2292,900;48421,700;70,26456
1161,68;34585,600; 2313,100;48619,300;69,69369
1166,06;34417,700; 2309,600;48732,900;69,16376
1170,44;34106,300; 2366,100;48547,000;68,73015
1174,81;33430,900; 2318,600;47745,300;68,48902
1179,18;33285,900; 2329,700;47463,900;68,58701
1183,54;33160,100; 2345,800;47060,900;68,91252
1187,90;33259,000; 2377,500;46950,700;69,28266
1192,25;32857,400; 2344,700;46149,700;69,65575
1196,60;32701,400; 2296,300;45763,400;69,94969
1200,94;32478,900; 2354,600;45323,500;70,10722
1205,28;31931,800; 2332,300;44562,200;70,09133
1209,62;31570,600; 2337,500;44056,300;70,07177
1213,95;31300,400; 2380,000;43765,500;69,88051
1218,27;30697,200; 2311,400;43022,100;69,72565
1222,59;29985,000; 2400,700;42056,700;69,55896
1226,91;29595,800; 2335,900;41649,600;69,33944
1231,22;28890,200; 2314,200;40767,800;69,11186
1235,52;28184,700; 2271,300;39901,100;68,86404
1239,82;27724,600; 2322,400;39388,100;68,53290
1244,12;26987,000; 2318,100;38438,000;68,29725
1248,41;26540,000; 2354,100;37852,300;68,13275
1252,70;25859,400; 2253,500;37010,900;67,91618
1256,98;25575,400; 2299,300;36667,700;67,72529
1261,26;25191,300; 2367,800;36177,100;67,50657
1265,53;24472,600; 2238,400;35319,900;67,21037
1269,80;24178,900; 2285,700;34968,200;66,98753
1274,06;23726,800; 2342,500;34372,200;66,76397
1278,32;23237,400; 2321,300;33766,300;66,51646
1282,57;22914,300; 2318,100;33423,400;66,21444
1286,82;22417,500; 2307,600;32829,200;65,88744
1291,06;21965,300; 2356,700;32275,900;65,53852
1295,30;21638,700; 2338,100;31892,600;65,30511
1299,53;21398,800; 2338,200;31647,500;65,03260
1303,76;20921,400; 2323,600;31079,700;64,67428
1307,99;20535,900; 2367,800;30595,000;64,36381
1312,20;20061,400; 2359,900;30024,100;63,98703
1316,42;19304,600; 2280,800;29032,600;63,63609
1320,63;18859,800; 2300,900;28458,500;63,30436
1324,83;18328,200; 2245,000;27777,100;62,99208
1329,03;17852,900; 2317,800;27170,400;62,50895
1333,23;17396,400; 2274,500;26672,500;61,98008
1337,42;17024,400; 2337,300;26255,200;61,40631
1341,60;16461,300; 2270,000;25620,600;60,77488
1345,78;16029,800; 2322,700;25115,000;60,13917
1349,96;15480,600; 2241,600;24490,500;59,50407
1354,13;14927,100; 2280,700;23745,200;58,91775
1358,29;14422,600; 2244,300;23082,400;58,44247
1362,46;13944,100; 2319,600;22366,700;57,98594
1366,61;13553,900; 2323,300;21817,100;57,61114
1370,76;13092,200; 2261,900;21157,200;57,31743
1374,91;12731,400; 2372,400;20568,000;56,93135
1379,05;12229,300; 2274,100;19879,800;56,54532
1383,18;12144,300; 2400,400;19767,200;56,10648
1387,32;11926,000; 2240,200;19676,200;55,55058
1391,44;11967,100; 2273,200;19905,300;54,97870
1395,56;12075,700; 2416,900;20153,000;54,45842
1399,68;11945,200; 2211,300;20249,800;53,96180
1403,79;12032,200; 2272,300;20517,600;53,49268
1407,90;11968,200; 2245,600;20456,300;53,38949
1412,00;12060,900; 2271,700;20615,900;53,36401
1416,10;12060,000; 2318,300;20574,800;53,36017
1420,19;11976,300; 2266,200;20394,400;53,56351
1424,27;12005,600; 2289,200;20322,000;53,88182
1428,36;12004,600; 2300,300;20186,500;54,25579
1432,43;11986,800; 2322,800;20034,000;54,56434
1436,50;11860,600; 2262,400;19772,900;54,81397
1440,57;11917,800; 2312,900;19797,100;54,93474
1444,63;11781,800; 2279,300;19549,200;55,02348
1448,69;11674,000; 2235,800;19361,400;55,11165
1452,74;11667,900; 2272,400;19303,800;55,16575
1456,79;11564,000; 2232,800;19131,100;55,21976
1460,83;11488,200; 2263,600;18961,800;55,24308
1464,87;11441,500; 2350,200;18781,300;55,32983
1468,90;11450,000; 2310,200;18791,500;55,45558
1472,93;11295,300; 2306,900;18491,800;55,53572
1476,95;11221,200; 2315,800;18328,800;55,61356
1480,96;11120,400; 2282,900;18145,100;55,71421
1484,98;11077,600; 2291,100;18038,800;55,79545
1488,98;10953,000; 2297,500;17808,200;55,80341
1492,98;10847,900; 2311,900;17607,700;55,80617
1496,98;10685,500; 2283,500;17361,700;55,72283
1500,97;10618,900; 2313,000;17233,100;55,66920
1504,96;10461,600; 2226,000;17033,400;55,61814
1508,94;10498,500; 2304,800;17050,500;55,56671
1512,92;10364,500; 2244,700;16883,900;55,46615
1516,89;10307,400; 2245,000;16798,700;55,39760
1520,85;10264,500; 2249,200;16740,000;55,31303
1524,81;10229,200; 2344,200;16642,100;55,14796
1528,77;10060,400; 2238,800;16473,000;54,94935
1532,72; 9974,800; 2252,300;16334,200;54,83990
1536,67; 9917,200; 2346,800;16198,700;54,65243
1540,61; 9711,100; 2261,900;15919,100;54,54412
1544,54; 9665,200; 2298,100;15815,100;54,50248
1548,47; 9501,000; 2230,000;15593,800;54,40818
1552,40; 9408,200; 2281,600;15410,700;54,28095
1556,32; 9314,400; 2276,600;15285,000;54,10196
1560,23; 9147,900; 2270,100;14999,600;54,03040
1564,15; 9104,700; 2284,800;14941,900;53,88201
1568,05; 8977,600; 2254,700;14763,000;53,74751
1571,95; 8872,700; 2299,800;14583,200;53,51043
1575,84; 8724,400; 2264,700;14396,200;53,24733
1579,73; 8614,900; 2278,600;14216,200;53,07851
1583,62; 8490,300; 2291,000;14037,500;52,77572
1587,50; 8331,500; 2227,300;13824,900;52,63330
1591,37; 8314,700; 2341,500;13765,300;52,28733
1595,24; 8125,400; 2290,900;13552,200;51,81018
1599,11; 7912,000; 2218,500;13299,400;51,38121
1602,96; 7772,800; 2233,800;13148,300;50,74900
1606,82; 7551,600; 2199,200;12931,900;49,87002
1610,67; 7371,300; 2259,900;12768,200;48,64155
1614,51; 7192,400; 2253,600;12662,100;47,44968
1618,35; 6938,500; 2200,500;12443,200;46,25733
1622,18; 6781,800; 2259,000;12320,000;44,95378
1626,01; 6576,900; 2261,500;12204,900;43,39964
1629,83; 6325,600; 2264,200;12060,300;41,45936
1633,65; 6089,200; 2285,600;11926,300;39,45357
1637,46; 5731,900; 2232,700;11710,000;36,92191
1641,27; 5448,800; 2240,500;11611,900;34,23501
1645,07; 5177,900; 2223,100;11460,600;31,98701
1648,86; 4978,100; 2252,200;11293,600;30,14909
1652,66; 4836,400; 2239,700;11231,400;28,87885
1656,44; 4734,600; 2248,900;11068,200;28,18478
1660,22; 4712,500; 2279,900;10946,100;28,06997
1664,00; 4794,500; 2293,300;10899,400;29,06311
1667,77; 4887,800; 2255,400;10706,100;31,15008
1671,53; 5008,700; 2267,200;10535,100;33,15836
1675,29; 5045,000; 2218,100;10422,700;34,45506
1679,05; 5118,100; 2268,300;10347,700;35,27242
1682,80; 5113,300; 2250,400;10217,700;35,93313
1686,54; 5196,100; 2284,500;10131,800;37,10321
1690,28; 5235,800; 2278,500;10016,500;38,21789
1694,01; 5156,500; 2220,600; 9797,600;38,74753
1697,74; 5096,800; 2222,200; 9685,200;38,51802
1701,46; 5079,500; 2264,100; 9639,900;38,17077
1705,18; 5005,700; 2239,900; 9483,800;38,18109
1708,89; 4889,500; 2178,500; 9321,400;37,95377
1712,60; 4943,900; 2263,700; 9310,100;38,03644
1716,30; 4938,000; 2296,000; 9229,900;38,10266
1720,00; 4913,000; 2272,600; 9164,500;38,31164
1723,69; 4889,600; 2274,100; 9040,800;38,65252
1727,38; 4803,500; 2189,500; 8867,100;39,14580
1731,06; 4881,800; 2257,500; 8834,400;39,90178
1734,73; 4858,800; 2236,800; 8714,100;40,47983
1738,40; 4851,100; 2214,400; 8628,400;41,10851
1742,07; 4921,400; 2286,100; 8625,700;41,56887
1745,73; 4890,300; 2245,800; 8533,600;42,05764
1749,38; 4900,200; 2278,500; 8445,700;42,51038

