lego
Integration time [ms]:  15,000
Averaging Nr. [scans]: 10
Smoothing Nr. [pixels]: 0
Data measured with spectrometer [name]: 1204091U1
Wave   ;Sample   ;Dark     ;Reference;Reflectance
[nm]   ;[counts] ;[counts] ;[counts] ;[%]

1014,48;12148,400; 2348,500;19637,500;56,68286
1019,01;12729,800; 2352,700;20829,700;56,16226
1023,54;13313,400; 2377,000;21962,200;55,84012
1028,07;13825,000; 2352,700;23028,700;55,48607
1032,59;14381,500; 2345,300;24165,800;55,16006
1037,10;15094,600; 2317,300;25614,800;54,84408
1041,62;15675,400; 2350,000;26799,400;54,50195
1046,12;16300,600; 2427,500;28080,800;54,07920
1050,62;16609,000; 2344,700;28925,600;53,66372
1055,12;16940,300; 2300,600;29808,600;53,21979
1059,62;17295,500; 2304,000;30750,500;52,70068
1064,10;17783,200; 2352,400;31934,300;52,16298
1068,59;18100,000; 2395,400;32879,900;51,51667
1073,07;18429,900; 2329,700;33988,100;50,85601
1077,54;18647,700; 2333,200;34909,400;50,08104
1082,01;18978,200; 2383,100;36084,400;49,24172
1086,48;19174,000; 2367,300;37013,200;48,50992
1090,94;19225,700; 2303,100;37697,100;47,81206
1095,39;19669,600; 2435,000;38991,300;47,14536
1099,85;19969,200; 2333,800;40179,000;46,59878
1104,29;20242,000; 2343,900;41108,400;46,17137
1108,73;20531,200; 2303,100;42037,300;45,87509
1113,17;20863,000; 2407,700;42761,500;45,73374
1117,61;21112,100; 2355,500;43454,900;45,63716
1122,03;21362,900; 2409,900;44116,600;45,44354
1126,46;21453,400; 2310,600;44683,800;45,17667
1130,88;21460,700; 2301,200;45196,100;44,66615
1135,29;21546,800; 2423,100;45857,400;44,02903
1139,70;21499,800; 2288,100;46461,700;43,49136
1144,11;21667,900; 2306,000;47061,800;43,26121
1148,51;22009,400; 2313,600;47677,600;43,41725
1152,90;22308,100; 2332,800;47946,200;43,79261
1157,29;22622,100; 2292,900;48421,700;44,07052
1161,68;22705,000; 2313,100;48619,300;44,03708
1166,06;22631,700; 2309,600;48732,900;43,77565
1170,44;22404,400; 2366,100;48547,000;43,39088
1174,81;21852,700; 2318,600;47745,300;43,00136
1179,18;21574,400; 2329,700;47463,900;42,63884
1183,54;21202,500; 2345,800;47060,900;42,17077
1187,90;20932,400; 2377,500;46950,700;41,62793
1192,25;20385,600; 2344,700;46149,700;41,18457
1196,60;20040,600; 2296,300;45763,400;40,82237
1200,94;19782,300; 2354,600;45323,500;40,55887
1205,28;19412,600; 2332,300;44562,200;40,44599
1209,62;19222,400; 2337,500;44056,300;40,47312
1213,95;19150,300; 2380,000;43765,500;40,52216
1218,27;18880,100; 2311,400;43022,100;40,69864
1222,59;18613,200; 2400,700;42056,700;40,88284
1226,91;18469,200; 2335,900;41649,600;41,03735
1231,22;18136,100; 2314,200;40767,800;41,14543
1235,52;17762,800; 2271,300;39901,100;41,16817
1239,82;17555,000; 2322,400;39388,100;41,09622
1244,12;17125,600; 2318,100;38438,000;40,99541
1248,41;16867,700; 2354,100;37852,300;40,88545
1252,70;16409,000; 2253,500;37010,900;40,72658
1256,98;16239,800; 2299,300;36667,700;40,56197
1261,26;16014,600; 2367,800;36177,100;40,36404
1265,53;15505,900; 2238,400;35319,900;40,10550
1269,80;15344,500; 2285,700;34968,200;39,95655
1274,06;15068,500; 2342,500;34372,200;39,73187
1278,32;14734,300; 2321,300;33766,300;39,47527
1282,57;14520,700; 2318,100;33423,400;39,22997
1286,82;14198,200; 2307,600;32829,200;38,95798
1291,06;13923,700; 2356,700;32275,900;38,66079
1295,30;13706,700; 2338,100;31892,600;38,46656
1299,53;13525,400; 2338,200;31647,500;38,16945
1303,76;13210,000; 2323,600;31079,700;37,85771
1307,99;12990,800; 2367,800;30595,000;37,63391
1312,20;12697,300; 2359,900;30024,100;37,36743
1316,42;12202,000; 2280,800;29032,600;37,08610
1320,63;11935,100; 2300,900;28458,500;36,83136
1324,83;11582,400; 2245,000;27777,100;36,57122
1329,03;11323,200; 2317,800;27170,400;36,23524
1333,23;11044,400; 2274,500;26672,500;35,94516
1337,42;10867,900; 2337,300;26255,200;35,66617
1341,60;10527,900; 2270,000;25620,600;35,36483
1345,78;10316,600; 2322,700;25115,000;35,07281
1349,96; 9974,000; 2241,600;24490,500;34,75408
1354,13; 9663,100; 2280,700;23745,200;34,39353
1358,29; 9344,500; 2244,300;23082,400;34,07316
1362,46; 9065,500; 2319,600;22366,700;33,65025
1366,61; 8787,900; 2323,300;21817,100;33,16234
1370,76; 8457,400; 2261,900;21157,200;32,78858
1374,91; 8244,600; 2372,400;20568,000;32,27264
1379,05; 7868,700; 2274,100;19879,800;31,77721
1383,18; 7847,600; 2400,400;19767,200;31,36559
1387,32; 7639,400; 2240,200;19676,200;30,96582
1391,44; 7656,400; 2273,200;19905,300;30,53068
1395,56; 7783,500; 2416,900;20153,000;30,25806
1399,68; 7601,700; 2211,300;20249,800;29,88275
1403,79; 7665,900; 2272,300;20517,600;29,56159
1407,90; 7591,600; 2245,600;20456,300;29,35637
1412,00; 7626,100; 2271,700;20615,900;29,18852
1416,10; 7638,300; 2318,300;20574,800;29,14031
1420,19; 7550,400; 2266,200;20394,400;29,14906
1424,27; 7536,900; 2289,200;20322,000;29,10086
1428,36; 7505,100; 2300,300;20186,500;29,09953
1432,43; 7465,700; 2322,800;20034,000;29,03756
1436,50; 7333,200; 2262,400;19772,900;28,95862
1440,57; 7363,100; 2312,900;19797,100;28,88436
1444,63; 7254,600; 2279,300;19549,200;28,80908
1448,69; 7153,500; 2235,800;19361,400;28,71549
1452,74; 7148,900; 2272,400;19303,800;28,63241
1456,79; 7048,000; 2232,800;19131,100;28,49517
1460,83; 7006,900; 2263,600;18961,800;28,40606
1464,87; 7001,500; 2350,200;18781,300;28,30790
1468,90; 6949,200; 2310,200;18791,500;28,14705
1472,93; 6856,200; 2306,900;18491,800;28,10830
1476,95; 6802,200; 2315,800;18328,800;28,01724
1480,96; 6713,700; 2282,900;18145,100;27,93307
1484,98; 6668,100; 2291,100;18038,800;27,79454
1488,98; 6595,100; 2297,500;17808,200;27,70732
1492,98; 6542,300; 2311,900;17607,700;27,65727
1496,98; 6439,100; 2283,500;17361,700;27,56032
1500,97; 6412,200; 2313,000;17233,100;27,47435
1504,96; 6274,000; 2226,000;17033,400;27,33768
1508,94; 6315,600; 2304,800;17050,500;27,19979
1512,92; 6202,400; 2244,700;16883,900;27,03495
1516,89; 6171,400; 2245,000;16798,700;26,97871
1520,85; 6126,900; 2249,200;16740,000;26,75974
1524,81; 6154,300; 2344,200;16642,100;26,64797
1528,77; 6012,200; 2238,800;16473,000;26,50939
1532,72; 5974,900; 2252,300;16334,200;26,43535
1536,67; 5984,100; 2346,800;16198,700;26,25849
1540,61; 5825,400; 2261,900;15919,100;26,09246
1544,54; 5821,600; 2298,100;15815,100;26,06717
1548,47; 5689,200; 2230,000;15593,800;25,88485
1552,40; 5667,600; 2281,600;15410,700;25,79004
1556,32; 5606,400; 2276,600;15285,000;25,59731
1560,23; 5500,100; 2270,100;14999,600;25,37413
1564,15; 5481,700; 2284,800;14941,900;25,25776
1568,05; 5401,300; 2254,700;14763,000;25,15610
1571,95; 5354,500; 2299,800;14583,200;24,86852
1575,84; 5261,700; 2264,700;14396,200;24,70428
1579,73; 5213,800; 2278,600;14216,200;24,58786
1583,62; 5147,600; 2291,000;14037,500;24,31873
1587,50; 5037,100; 2227,300;13824,900;24,22743
1591,37; 5085,300; 2341,500;13765,300;24,01828
1595,24; 4971,900; 2290,900;13552,200;23,80720
1599,11; 4826,600; 2218,500;13299,400;23,53690
1602,96; 4773,200; 2233,800;13148,300;23,26630
1606,82; 4655,500; 2199,200;12931,900;22,88613
1610,67; 4623,700; 2259,900;12768,200;22,49460
1614,51; 4555,400; 2253,600;12662,100;22,11462
1618,35; 4413,000; 2200,500;12443,200;21,60075
1622,18; 4373,800; 2259,000;12320,000;21,01978
1626,01; 4286,400; 2261,500;12204,900;20,36426
1629,83; 4202,700; 2264,200;12060,300;19,78849
1633,65; 4130,500; 2285,600;11926,300;19,13658
1637,46; 3997,400; 2232,700;11710,000;18,62028
1641,27; 3955,600; 2240,500;11611,900;18,30143
1645,07; 3885,500; 2223,100;11460,600;17,99621
1648,86; 3842,500; 2252,200;11293,600;17,58909
1652,66; 3770,100; 2239,700;11231,400;17,02014
1656,44; 3661,000; 2248,900;11068,200;16,01147
1660,22; 3596,400; 2279,900;10946,100;15,19120
1664,00; 3513,300; 2293,300;10899,400;14,17599
1667,77; 3384,700; 2255,400;10706,100;13,36339
1671,53; 3336,200; 2267,200;10535,100;12,92952
1675,29; 3257,700; 2218,100;10422,700;12,67094
1679,05; 3288,900; 2268,300;10347,700;12,63213
1682,80; 3274,900; 2250,400;10217,700;12,85881
1686,54; 3319,500; 2284,500;10131,800;13,18925
1690,28; 3295,200; 2278,500;10016,500;13,13905
1694,01; 3231,300; 2220,600; 9797,600;13,33905
1697,74; 3227,800; 2222,200; 9685,200;13,47447
1701,46; 3269,500; 2264,100; 9639,900;13,63106
1705,18; 3237,300; 2239,900; 9483,800;13,76883
1708,89; 3167,200; 2178,500; 9321,400;13,84172
1712,60; 3237,500; 2263,700; 9310,100;13,81982
1716,30; 3254,700; 2296,000; 9229,900;13,82627
1720,00; 3229,400; 2272,600; 9164,500;13,88296
1723,69; 3215,300; 2274,100; 9040,800;13,90929
1727,38; 3127,600; 2189,500; 8867,100;14,04846
1731,06; 3191,300; 2257,500; 8834,400;14,19818
1734,73; 3167,500; 2236,800; 8714,100;14,36864
1738,40; 3145,900; 2214,400; 8628,400;14,52292
1742,07; 3199,300; 2286,100; 8625,700;14,40469
1745,73; 3139,400; 2245,800; 8533,600;14,21165
1749,38; 3148,300; 2278,500; 8445,700;14,10365

