clearcrispyplastic
Integration time [ms]:  15,000
Averaging Nr. [scans]: 10
Smoothing Nr. [pixels]: 0
Data measured with spectrometer [name]: 1204091U1
Wave   ;Sample   ;Dark     ;Reference;Reflectance
[nm]   ;[counts] ;[counts] ;[counts] ;[%]

1014,48;19293,800; 2348,500;19637,500;98,01203
1019,01;20444,500; 2352,700;20829,700;97,91525
1023,54;21497,300; 2377,000;21962,200;97,62627
1028,07;22482,900; 2352,700;23028,700;97,36022
1032,59;23578,300; 2345,300;24165,800;97,30758
1037,10;25026,700; 2317,300;25614,800;97,47569
1041,62;26218,400; 2350,000;26799,400;97,62366
1046,12;27461,000; 2427,500;28080,800;97,58394
1050,62;28230,300; 2344,700;28925,600;97,38421
1055,12;29011,100; 2300,600;29808,600;97,10084
1059,62;29867,500; 2304,000;30750,500;96,89593
1064,10;31013,300; 2352,400;31934,300;96,88661
1068,59;31997,200; 2395,400;32879,900;97,10443
1073,07;33182,600; 2329,700;33988,100;97,45565
1077,54;34149,600; 2333,200;34909,400;97,66762
1082,01;35270,800; 2383,100;36084,400;97,58585
1086,48;36077,800; 2367,300;37013,200;97,30011
1090,94;36608,500; 2303,100;37697,100;96,92434
1095,39;37768,200; 2435,000;38991,300;96,65420
1099,85;38855,800; 2333,800;40179,000;96,50365
1104,29;39747,600; 2343,900;41108,400;96,48957
1108,73;40679,800; 2303,100;42037,300;96,58355
1113,17;41402,400; 2407,700;42761,500;96,63204
1117,61;42016,300; 2355,500;43454,900;96,49971
1122,03;42523,100; 2409,900;44116,600;96,17927
1126,46;42857,700; 2310,600;44683,800;95,69044
1130,88;43133,800; 2301,200;45196,100;95,19220
1135,29;43580,000; 2423,100;45857,400;94,75668
1139,70;43995,100; 2288,100;46461,700;94,41612
1144,11;44567,300; 2306,000;47061,800;94,42642
1148,51;45342,800; 2313,600;47677,600;94,85319
1152,90;45837,500; 2332,800;47946,200;95,37702
1157,29;46466,100; 2292,900;48421,700;95,76057
1161,68;46679,400; 2313,100;48619,300;95,81071
1166,06;46691,300; 2309,600;48732,900;95,60221
1170,44;46407,500; 2366,100;48547,000;95,36713
1174,81;45610,900; 2318,600;47745,300;95,30144
1179,18;45384,400; 2329,700;47463,900;95,39263
1183,54;45074,400; 2345,800;47060,900;95,55743
1187,90;45048,900; 2377,500;46950,700;95,73331
1192,25;44326,800; 2344,700;46149,700;95,83860
1196,60;43968,000; 2296,300;45763,400;95,86952
1200,94;43502,700; 2354,600;45323,500;95,76252
1205,28;42689,800; 2332,300;44562,200;95,56617
1209,62;42126,000; 2337,500;44056,300;95,37307
1213,95;41791,100; 2380,000;43765,500;95,22925
1218,27;41072,900; 2311,400;43022,100;95,21207
1222,59;40200,500; 2400,700;42056,700;95,31925
1226,91;39846,700; 2335,900;41649,600;95,41407
1231,22;39061,300; 2314,200;40767,800;95,56218
1235,52;38253,000; 2271,300;39901,100;95,62023
1239,82;37744,500; 2322,400;39388,100;95,56571
1244,12;36818,800; 2318,100;38438,000;95,51715
1248,41;36245,400; 2354,100;37852,300;95,47329
1252,70;35393,600; 2253,500;37010,900;95,34689
1256,98;35037,000; 2299,300;36667,700;95,25523
1261,26;34556,000; 2367,800;36177,100;95,20517
1265,53;33700,200; 2238,400;35319,900;95,10391
1269,80;33364,500; 2285,700;34968,200;95,09309
1274,06;32818,300; 2342,500;34372,200;95,14857
1278,32;32278,300; 2321,300;33766,300;95,26793
1282,57;31973,000; 2318,100;33423,400;95,33713
1286,82;31411,400; 2307,600;32829,200;95,35477
1291,06;30900,600; 2356,700;32275,900;95,40329
1295,30;30512,600; 2338,100;31892,600;95,33066
1299,53;30218,400; 2338,200;31647,500;95,12407
1303,76;29620,400; 2323,600;31079,700;94,92525
1307,99;29114,400; 2367,800;30595,000;94,75470
1312,20;28524,100; 2359,900;30024,100;94,57783
1316,42;27538,700; 2280,800;29032,600;94,41570
1320,63;26985,400; 2300,900;28458,500;94,36837
1324,83;26357,600; 2245,000;27777,100;94,44033
1329,03;25806,900; 2317,800;27170,400;94,51365
1333,23;25374,600; 2274,500;26672,500;94,68030
1337,42;25023,500; 2337,300;26255,200;94,85030
1341,60;24443,600; 2270,000;25620,600;94,95944
1345,78;23958,900; 2322,700;25115,000;94,92767
1349,96;23328,200; 2241,600;24490,500;94,77592
1354,13;22596,200; 2280,700;23745,200;94,64698
1358,29;21944,000; 2244,300;23082,400;94,53693
1362,46;21207,300; 2319,600;22366,700;94,21662
1366,61;20646,100; 2323,300;21817,100;93,99296
1370,76;20001,100; 2261,900;21157,200;93,88155
1374,91;19415,100; 2372,400;20568,000;93,66385
1379,05;18770,100; 2274,100;19879,800;93,69693
1383,18;18689,700; 2400,400;19767,200;93,79563
1387,32;18608,600; 2240,200;19676,200;93,87704
1391,44;18830,800; 2273,200;19905,300;93,90600
1395,56;19076,800; 2416,900;20153,000;93,93215
1399,68;19157,000; 2211,300;20249,800;93,94185
1403,79;19388,500; 2272,300;20517,600;93,81156
1407,90;19327,300; 2245,600;20456,300;93,80035
1412,00;19458,400; 2271,700;20615,900;93,69010
1416,10;19387,500; 2318,300;20574,800;93,49656
1420,19;19199,400; 2266,200;20394,400;93,40806
1424,27;19112,200; 2289,200;20322,000;93,29111
1428,36;18980,100; 2300,300;20186,500;93,25514
1432,43;18827,700; 2322,800;20034,000;93,18906
1436,50;18599,300; 2262,400;19772,900;93,29774
1440,57;18631,700; 2312,900;19797,100;93,33455
1444,63;18433,400; 2279,300;19549,200;93,53905
1448,69;18290,900; 2235,800;19361,400;93,74912
1452,74;18264,500; 2272,400;19303,800;93,89774
1456,79;18114,700; 2232,800;19131,100;93,98519
1460,83;17972,100; 2263,600;18961,800;94,07301
1464,87;17798,000; 2350,200;18781,300;94,01562
1468,90;17797,600; 2310,200;18791,500;93,96953
1472,93;17492,600; 2306,900;18491,800;93,82634
1476,95;17320,500; 2315,800;18328,800;93,70324
1480,96;17136,300; 2282,900;18145,100;93,64023
1484,98;17020,700; 2291,100;18038,800;93,53493
1488,98;16796,000; 2297,500;17808,200;93,47418
1492,98;16602,500; 2311,900;17607,700;93,42826
1496,98;16377,300; 2283,500;17361,700;93,47137
1500,97;16280,600; 2313,000;17233,100;93,61599
1504,96;16104,000; 2226,000;17033,400;93,72341
1508,94;16144,900; 2304,800;17050,500;93,85855
1512,92;16001,800; 2244,700;16883,900;93,97440
1516,89;15933,000; 2245,000;16798,700;94,05168
1520,85;15892,300; 2249,200;16740,000;94,15008
1524,81;15807,900; 2344,200;16642,100;94,16558
1528,77;15641,800; 2238,800;16473,000;94,16054
1532,72;15505,500; 2252,300;16334,200;94,11514
1536,67;15368,000; 2346,800;16198,700;94,00299
1540,61;15082,800; 2261,900;15919,100;93,87649
1544,54;14971,500; 2298,100;15815,100;93,75897
1548,47;14740,600; 2230,000;15593,800;93,61559
1552,40;14559,300; 2281,600;15410,700;93,51517
1556,32;14420,300; 2276,600;15285,000;93,35276
1560,23;14150,100; 2270,100;14999,600;93,32653
1564,15;14087,500; 2284,800;14941,900;93,24964
1568,05;13914,500; 2254,700;14763,000;93,21650
1571,95;13760,300; 2299,800;14583,200;93,30071
1575,84;13585,500; 2264,700;14396,200;93,31740
1579,73;13429,200; 2278,600;14216,200;93,40739
1583,62;13264,200; 2291,000;14037,500;93,41676
1587,50;13069,200; 2227,300;13824,900;93,48400
1591,37;13034,300; 2341,500;13765,300;93,60108
1595,24;12834,000; 2290,900;13552,200;93,62241
1599,11;12587,200; 2218,500;13299,400;93,57272
1602,96;12427,800; 2233,800;13148,300;93,39869
1606,82;12185,200; 2199,200;12931,900;93,04276
1610,67;11988,500; 2259,900;12768,200;92,58015
1614,51;11847,000; 2253,600;12662,100;92,16890
1618,35;11602,400; 2200,500;12443,200;91,79123
1622,18;11419,900; 2259,000;12320,000;91,05357
1626,01;11237,400; 2261,500;12204,900;90,26993
1629,83;11033,400; 2264,200;12060,300;89,51726
1633,65;10839,600; 2285,600;11926,300;88,72800
1637,46;10571,300; 2232,700;11710,000;87,98497
1641,27;10408,000; 2240,500;11611,900;87,15347
1645,07;10205,300; 2223,100;11460,600;86,41083
1648,86;10009,800; 2252,200;11293,600;85,80087
1652,66; 9896,600; 2239,700;11231,400;85,15520
1656,44; 9651,400; 2248,900;11068,200;83,93523
1660,22; 9397,600; 2279,900;10946,100;82,13173
1664,00; 9184,300; 2293,300;10899,400;80,07111
1667,77; 8854,900; 2255,400;10706,100;78,09412
1671,53; 8591,700; 2267,200;10535,100;76,49464
1675,29; 8408,500; 2218,100;10422,700;75,45036
1679,05; 8382,400; 2268,300;10347,700;75,67517
1682,80; 8349,400; 2250,400;10217,700;76,55040
1686,54; 8397,700; 2284,500;10131,800;77,90195
1690,28; 8418,400; 2278,500;10016,500;79,34738
1694,01; 8339,900; 2220,600; 9797,600;80,76152
1697,74; 8364,000; 2222,200; 9685,200;82,29666
1701,46; 8451,000; 2264,100; 9639,900;83,88107
1705,18; 8418,400; 2239,900; 9483,800;85,29245
1708,89; 8302,800; 2178,500; 9321,400;85,73969
1712,60; 8338,200; 2263,700; 9310,100;86,20714
1716,30; 8292,300; 2296,000; 9229,900;86,47803
1720,00; 8255,300; 2272,600; 9164,500;86,80770
1723,69; 8156,600; 2274,100; 9040,800;86,93307
1727,38; 8030,300; 2189,500; 8867,100;87,46855
1731,06; 8041,900; 2257,500; 8834,400;87,95025
1734,73; 7964,200; 2236,800; 8714,100;88,42265
1738,40; 7904,900; 2214,400; 8628,400;88,71999
1742,07; 7929,600; 2286,100; 8625,700;89,01981
1745,73; 7843,900; 2245,800; 8533,600;89,03114
1749,38; 7757,700; 2278,500; 8445,700;88,84421

