pstranspartent
Integration time [ms]:  15,000
Averaging Nr. [scans]: 10
Smoothing Nr. [pixels]: 0
Data measured with spectrometer [name]: 1204091U1
Wave   ;Sample   ;Dark     ;Reference;Reflectance
[nm]   ;[counts] ;[counts] ;[counts] ;[%]

1014,48;25562,700; 2348,500;19637,500;134,27150
1019,01;27133,200; 2352,700;20829,700;134,11539
1023,54;28709,300; 2377,000;21962,200;134,44999
1028,07;30143,300; 2352,700;23028,700;134,40994
1032,59;31671,900; 2345,300;24165,800;134,39930
1037,10;33641,600; 2317,300;25614,800;134,45348
1041,62;35217,500; 2350,000;26799,400;134,43070
1046,12;36912,400; 2427,500;28080,800;134,42676
1050,62;38108,200; 2344,700;28925,600;134,54586
1055,12;39364,000; 2300,600;29808,600;134,73680
1059,62;40694,400; 2304,000;30750,500;134,95650
1064,10;42310,300; 2352,400;31934,300;135,07550
1068,59;43606,900; 2395,400;32879,900;135,18837
1073,07;45187,200; 2329,700;33988,100;135,37481
1077,54;46476,700; 2333,200;34909,400;135,50844
1082,01;48032,300; 2383,100;36084,400;135,45234
1086,48;49271,500; 2367,300;37013,200;135,38168
1090,94;50209,300; 2303,100;37697,100;135,35119
1095,39;51844,300; 2435,000;38991,300;135,15947
1099,85;53363,000; 2333,800;40179,000;134,83665
1104,29;54441,000; 2343,900;41108,400;134,39384
1108,73;55549,100; 2303,100;42037,300;134,00547
1113,17;56279,500; 2407,700;42761,500;133,49870
1117,61;56979,800; 2355,500;43454,900;132,90778
1122,03;57544,900; 2409,900;44116,600;132,19699
1126,46;57925,600; 2310,600;44683,800;131,25041
1130,88;58017,900; 2301,200;45196,100;129,89120
1135,29;58180,700; 2423,100;45857,400;128,37228
1139,70;58317,600; 2288,100;46461,700;126,83933
1144,11;58809,500; 2306,000;47061,800;126,24844
1148,51;59899,600; 2313,600;47677,600;126,94207
1152,90;60941,500; 2332,800;47946,200;128,49009
1157,29;62215,200; 2292,900;48421,700;129,90214
1161,68;62842,900; 2313,100;48619,300;130,71641
1166,06;63116,100; 2309,600;48732,900;130,98272
1170,44;62884,800; 2366,100;48547,000;131,04703
1174,81;61890,000; 2318,600;47745,300;131,13741
1179,18;61511,400; 2329,700;47463,900;131,12385
1183,54;60908,500; 2345,800;47060,900;130,96851
1187,90;60567,200; 2377,500;46950,700;130,54863
1192,25;59311,000; 2344,700;46149,700;130,04520
1196,60;58678,300; 2296,300;45763,400;129,71190
1200,94;57966,500; 2354,600;45323,500;129,42361
1205,28;56886,400; 2332,300;44562,200;129,18359
1209,62;56200,100; 2337,500;44056,300;129,10870
1213,95;55909,000; 2380,000;43765,500;129,34240
1218,27;55059,000; 2311,400;43022,100;129,56692
1222,59;53951,300; 2400,700;42056,700;129,99445
1226,91;53597,700; 2335,900;41649,600;130,39170
1231,22;52504,000; 2314,200;40767,800;130,52042
1235,52;51383,600; 2271,300;39901,100;130,51438
1239,82;50688,600; 2322,400;39388,100;130,48776
1244,12;49410,500; 2318,100;38438,000;130,37799
1248,41;48624,100; 2354,100;37852,300;130,34464
1252,70;47528,900; 2253,500;37010,900;130,26118
1256,98;47015,300; 2299,300;36667,700;130,10789
1261,26;46249,600; 2367,800;36177,100;129,79210
1265,53;45091,200; 2238,400;35319,900;129,53705
1269,80;44529,300; 2285,700;34968,200;129,25449
1274,06;43675,700; 2342,500;34372,200;129,04648
1278,32;42860,700; 2321,300;33766,300;128,92161
1282,57;42361,200; 2318,100;33423,400;128,73401
1286,82;41534,000; 2307,600;32829,200;128,52013
1291,06;40718,400; 2356,700;32275,900;128,21767
1295,30;40090,500; 2338,100;31892,600;127,73825
1299,53;39612,600; 2338,200;31647,500;127,17602
1303,76;38762,600; 2323,600;31079,700;126,71746
1307,99;37983,900; 2367,800;30595,000;126,17652
1312,20;37112,800; 2359,900;30024,100;125,62409
1316,42;35775,200; 2280,800;29032,600;125,20429
1320,63;34948,500; 2300,900;28458,500;124,81114
1324,83;34009,800; 2245,000;27777,100;124,41123
1329,03;33130,500; 2317,800;27170,400;123,98180
1333,23;32412,700; 2274,500;26672,500;123,52734
1337,42;31827,100; 2337,300;26255,200;123,29594
1341,60;30999,100; 2270,000;25620,600;123,03367
1345,78;30271,900; 2322,700;25115,000;122,62562
1349,96;29393,400; 2241,600;24490,500;122,03660
1354,13;28356,900; 2280,700;23745,200;121,48524
1358,29;27409,500; 2244,300;23082,400;120,76533
1362,46;26391,000; 2319,600;22366,700;120,07423
1366,61;25617,900; 2323,300;21817,100;119,49748
1370,76;24790,700; 2261,900;21157,200;119,22965
1374,91;24021,700; 2372,400;20568,000;118,98096
1379,05;23247,500; 2274,100;19879,800;119,12846
1383,18;23123,300; 2400,400;19767,200;119,32480
1387,32;22998,300; 2240,200;19676,200;119,05311
1391,44;23218,400; 2273,200;19905,300;118,79016
1395,56;23432,600; 2416,900;20153,000;118,49110
1399,68;23571,400; 2211,300;20249,800;118,41395
1403,79;23859,600; 2272,300;20517,600;118,31705
1407,90;23791,800; 2245,600;20456,300;118,31615
1412,00;23961,000; 2271,700;20615,900;118,23519
1416,10;23893,400; 2318,300;20574,800;118,17764
1420,19;23708,300; 2266,200;20394,400;118,28036
1424,27;23664,600; 2289,200;20322,000;118,53622
1428,36;23543,500; 2300,300;20186,500;118,76866
1432,43;23342,600; 2322,800;20034,000;118,68083
1436,50;23064,000; 2262,400;19772,900;118,79501
1440,57;23082,900; 2312,900;19797,100;118,79297
1444,63;22805,400; 2279,300;19549,200;118,85477
1448,69;22614,600; 2235,800;19361,400;118,99612
1452,74;22574,200; 2272,400;19303,800;119,20218
1456,79;22385,600; 2232,800;19131,100;119,25933
1460,83;22172,000; 2263,600;18961,800;119,22483
1464,87;21956,900; 2350,200;18781,300;119,32676
1468,90;21982,200; 2310,200;18791,500;119,35952
1472,93;21635,400; 2306,900;18491,800;119,42304
1476,95;21436,600; 2315,800;18328,800;119,40798
1480,96;21248,500; 2282,900;18145,100;119,56475
1484,98;21112,900; 2291,100;18038,800;119,52095
1488,98;20882,100; 2297,500;17808,200;119,81793
1492,98;20664,400; 2311,900;17607,700;119,98392
1496,98;20415,800; 2283,500;17361,700;120,25507
1500,97;20278,800; 2313,000;17233,100;120,41340
1504,96;20062,600; 2226,000;17033,400;120,45734
1508,94;20082,500; 2304,800;17050,500;120,56193
1512,92;19889,200; 2244,700;16883,900;120,52913
1516,89;19750,300; 2245,000;16798,700;120,28075
1520,85;19649,900; 2249,200;16740,000;120,08102
1524,81;19504,800; 2344,200;16642,100;120,02182
1528,77;19316,000; 2238,800;16473,000;119,97302
1532,72;19137,800; 2252,300;16334,200;119,90925
1536,67;18947,000; 2346,800;16198,700;119,84060
1540,61;18632,700; 2261,900;15919,100;119,86937
1544,54;18472,000; 2298,100;15815,100;119,65599
1548,47;18210,800; 2230,000;15593,800;119,58275
1552,40;17992,100; 2281,600;15410,700;119,66167
1556,32;17834,800; 2276,600;15285,000;119,60118
1560,23;17502,800; 2270,100;14999,600;119,66456
1564,15;17415,700; 2284,800;14941,900;119,54476
1568,05;17175,300; 2254,700;14763,000;119,28559
1571,95;16906,900; 2299,800;14583,200;118,91740
1575,84;16686,300; 2264,700;14396,200;118,87730
1579,73;16459,300; 2278,600;14216,200;118,79021
1583,62;16213,500; 2291,000;14037,500;118,52467
1587,50;15937,100; 2227,300;13824,900;118,21239
1591,37;15798,800; 2341,500;13765,300;117,80056
1595,24;15499,700; 2290,900;13552,200;117,29374
1599,11;15140,200; 2218,500;13299,400;116,61237
1602,96;14856,700; 2233,800;13148,300;115,65257
1606,82;14511,400; 2199,200;12931,900;114,71671
1610,67;14202,200; 2259,900;12768,200;113,64636
1614,51;13952,700; 2253,600;12662,100;112,39948
1618,35;13582,100; 2200,500;12443,200;111,11914
1622,18;13263,400; 2259,000;12320,000;109,37680
1626,01;12935,100; 2261,500;12204,900;107,34356
1629,83;12536,000; 2264,200;12060,300;104,85601
1633,65;12143,200; 2285,600;11926,300;102,24984
1637,46;11691,600; 2232,700;11710,000;99,80585
1641,27;11375,200; 2240,500;11611,900;97,47423
1645,07;11008,600; 2223,100;11460,600;95,10690
1648,86;10653,000; 2252,200;11293,600;92,91481
1652,66;10353,500; 2239,700;11231,400;90,23655
1656,44; 9843,900; 2248,900;11068,200;86,11795
1660,22; 9278,600; 2279,900;10946,100;80,75858
1664,00; 8764,600; 2293,300;10899,400;75,19434
1667,77; 8213,600; 2255,400;10706,100;70,50540
1671,53; 7791,800; 2267,200;10535,100;66,81987
1675,29; 7539,500; 2218,100;10422,700;64,85874
1679,05; 7540,600; 2268,300;10347,700;65,25608
1682,80; 7574,900; 2250,400;10217,700;66,82942
1686,54; 7728,100; 2284,500;10131,800;69,36908
1690,28; 7837,500; 2278,500;10016,500;71,84027
1694,01; 7870,800; 2220,600; 9797,600;74,57041
1697,74; 8029,200; 2222,200; 9685,200;77,81053
1701,46; 8246,500; 2264,100; 9639,900;81,10849
1705,18; 8282,800; 2239,900; 9483,800;83,42053
1708,89; 8203,200; 2178,500; 9321,400;84,34529
1712,60; 8263,100; 2263,700; 9310,100;85,14135
1716,30; 8262,200; 2296,000; 9229,900;86,04393
1720,00; 8276,300; 2272,600; 9164,500;87,11241
1723,69; 8225,400; 2274,100; 9040,800;87,94981
1727,38; 8165,600; 2189,500; 8867,100;89,49473
1731,06; 8267,200; 2257,500; 8834,400;91,37588
1734,73; 8272,100; 2236,800; 8714,100;93,17617
1738,40; 8276,500; 2214,400; 8628,400;94,51356
1742,07; 8315,400; 2286,100; 8625,700;95,10537
1745,73; 8190,700; 2245,800; 8533,600;94,54658
1749,38; 8024,700; 2278,500; 8445,700;93,17356

