whitepetbottle
Integration time [ms]:  15,000
Averaging Nr. [scans]: 10
Smoothing Nr. [pixels]: 0
Data measured with spectrometer [name]: 1204091U1
Wave   ;Sample   ;Dark     ;Reference;Reflectance
[nm]   ;[counts] ;[counts] ;[counts] ;[%]

1014,48;11131,000; 2348,500;19637,500;50,79820
1019,01;11633,700; 2352,700;20829,700;50,23002
1023,54;12127,200; 2377,000;21962,200;49,78351
1028,07;12534,000; 2352,700;23028,700;49,24212
1032,59;13001,500; 2345,300;24165,800;48,83573
1037,10;13603,400; 2317,300;25614,800;48,44340
1041,62;14071,400; 2350,000;26799,400;47,94146
1046,12;14612,600; 2427,500;28080,800;47,49915
1050,62;14853,300; 2344,700;28925,600;47,05860
1055,12;15126,300; 2300,600;29808,600;46,62535
1059,62;15453,500; 2304,000;30750,500;46,22537
1064,10;15914,400; 2352,400;31934,300;45,84560
1068,59;16255,500; 2395,400;32879,900;45,46606
1073,07;16603,700; 2329,700;33988,100;45,08756
1077,54;16887,300; 2333,200;34909,400;44,67710
1082,01;17278,900; 2383,100;36084,400;44,19948
1086,48;17527,300; 2367,300;37013,200;43,75698
1090,94;17626,200; 2303,100;37697,100;43,29293
1095,39;18065,100; 2435,000;38991,300;42,75624
1099,85;18300,000; 2333,800;40179,000;42,18818
1104,29;18467,000; 2343,900;41108,400;41,59244
1108,73;18568,900; 2303,100;42037,300;40,93652
1113,17;18658,900; 2407,700;42761,500;40,27180
1117,61;18621,700; 2355,500;43454,900;39,57771
1122,03;18598,700; 2409,900;44116,600;38,81583
1126,46;18497,400; 2310,600;44683,800;38,20056
1130,88;18551,800; 2301,200;45196,100;37,88469
1135,29;18875,200; 2423,100;45857,400;37,87813
1139,70;19056,000; 2288,100;46461,700;37,95910
1144,11;19223,300; 2306,000;47061,800;37,79912
1148,51;19293,500; 2313,600;47677,600;37,43034
1152,90;19217,700; 2332,800;47946,200;37,01741
1157,29;19172,500; 2292,900;48421,700;36,59232
1161,68;19041,300; 2313,100;48619,300;36,12518
1166,06;18900,800; 2309,600;48732,900;35,73895
1170,44;18699,800; 2366,100;48547,000;35,36895
1174,81;18251,100; 2318,600;47745,300;35,07299
1179,18;18082,200; 2329,700;47463,900;34,90147
1183,54;17906,200; 2345,800;47060,900;34,79898
1187,90;17833,300; 2377,500;46950,700;34,67510
1192,25;17486,600; 2344,700;46149,700;34,56660
1196,60;17272,100; 2296,300;45763,400;34,45318
1200,94;17080,200; 2354,600;45323,500;34,27037
1205,28;16709,800; 2332,300;44562,200;34,04578
1209,62;16445,700; 2337,500;44056,300;33,81737
1213,95;16250,300; 2380,000;43765,500;33,51488
1218,27;15851,600; 2311,400;43022,100;33,25956
1222,59;15469,300; 2400,700;42056,700;32,95491
1226,91;15174,500; 2335,900;41649,600;32,65681
1231,22;14759,500; 2314,200;40767,800;32,36446
1235,52;14342,800; 2271,300;39901,100;32,07963
1239,82;14095,900; 2322,400;39388,100;31,76387
1244,12;13682,900; 2318,100;38438,000;31,46410
1248,41;13441,100; 2354,100;37852,300;31,23257
1252,70;13000,000; 2253,500;37010,900;30,91860
1256,98;12839,800; 2299,300;36667,700;30,66916
1261,26;12650,100; 2367,800;36177,100;30,41264
1265,53;12195,300; 2238,400;35319,900;30,09809
1269,80;12048,400; 2285,700;34968,200;29,87134
1274,06;11826,400; 2342,500;34372,200;29,60971
1278,32;11548,400; 2321,300;33766,300;29,34362
1282,57;11360,800; 2318,100;33423,400;29,07125
1286,82;11093,800; 2307,600;32829,200;28,78683
1291,06;10888,500; 2356,700;32275,900;28,51614
1295,30;10691,900; 2338,100;31892,600;28,26575
1299,53;10543,000; 2338,200;31647,500;27,99384
1303,76;10288,600; 2323,600;31079,700;27,69847
1307,99;10125,100; 2367,800;30595,000;27,48165
1312,20; 9890,000; 2359,900;30024,100;27,21966
1316,42; 9491,800; 2280,800;29032,600;26,95520
1320,63; 9289,400; 2300,900;28458,500;26,71690
1324,83; 8999,300; 2245,000;27777,100;26,45415
1329,03; 8815,500; 2317,800;27170,400;26,14495
1333,23; 8586,800; 2274,500;26672,500;25,87220
1337,42; 8459,000; 2337,300;26255,200;25,59464
1341,60; 8162,900; 2270,000;25620,600;25,23661
1345,78; 7999,300; 2322,700;25115,000;24,90578
1349,96; 7723,700; 2241,600;24490,500;24,63987
1354,13; 7494,800; 2280,700;23745,200;24,29174
1358,29; 7253,900; 2244,300;23082,400;24,04058
1362,46; 7090,200; 2319,600;22366,700;23,79696
1366,61; 6923,100; 2323,300;21817,100;23,59622
1370,76; 6683,700; 2261,900;21157,200;23,40159
1374,91; 6591,400; 2372,400;20568,000;23,18692
1379,05; 6318,600; 2274,100;19879,800;22,97267
1383,18; 6353,500; 2400,400;19767,200;22,76240
1387,32; 6168,900; 2240,200;19676,200;22,53212
1391,44; 6186,400; 2273,200;19905,300;22,19361
1395,56; 6320,500; 2416,900;20153,000;22,00935
1399,68; 6133,200; 2211,300;20249,800;21,74183
1403,79; 6185,200; 2272,300;20517,600;21,44607
1407,90; 6132,000; 2245,600;20456,300;21,34130
1412,00; 6163,700; 2271,700;20615,900;21,21652
1416,10; 6172,300; 2318,300;20574,800;21,11029
1420,19; 6085,500; 2266,200;20394,400;21,06828
1424,27; 6077,200; 2289,200;20322,000;21,00617
1428,36; 6062,100; 2300,300;20186,500;21,03186
1432,43; 6038,200; 2322,800;20034,000;20,97769
1436,50; 5921,300; 2262,400;19772,900;20,89546
1440,57; 5952,500; 2312,900;19797,100;20,81651
1444,63; 5861,300; 2279,300;19549,200;20,74129
1448,69; 5778,800; 2235,800;19361,400;20,68833
1452,74; 5776,500; 2272,400;19303,800;20,57435
1456,79; 5688,500; 2232,800;19131,100;20,44999
1460,83; 5660,000; 2263,600;18961,800;20,33992
1464,87; 5679,600; 2350,200;18781,300;20,26279
1468,90; 5638,500; 2310,200;18791,500;20,19440
1472,93; 5568,600; 2306,900;18491,800;20,15273
1476,95; 5528,900; 2315,800;18328,800;20,06557
1480,96; 5455,200; 2282,900;18145,100;19,99912
1484,98; 5425,000; 2291,100;18038,800;19,90068
1488,98; 5371,700; 2297,500;17808,200;19,81987
1492,98; 5328,600; 2311,900;17607,700;19,72241
1496,98; 5248,900; 2283,500;17361,700;19,66680
1500,97; 5238,500; 2313,000;17233,100;19,60778
1504,96; 5107,700; 2226,000;17033,400;19,46122
1508,94; 5164,700; 2304,800;17050,500;19,39481
1512,92; 5065,900; 2244,700;16883,900;19,27154
1516,89; 5044,600; 2245,000;16798,700;19,23635
1520,85; 5000,500; 2249,200;16740,000;18,98653
1524,81; 5049,100; 2344,200;16642,100;18,91816
1528,77; 4915,600; 2238,800;16473,000;18,80541
1532,72; 4888,100; 2252,300;16334,200;18,71764
1536,67; 4924,300; 2346,800;16198,700;18,60756
1540,61; 4796,000; 2261,900;15919,100;18,55505
1544,54; 4797,200; 2298,100;15815,100;18,48857
1548,47; 4681,000; 2230,000;15593,800;18,34059
1552,40; 4688,500; 2281,600;15410,700;18,33256
1556,32; 4650,600; 2276,600;15285,000;18,24975
1560,23; 4578,000; 2270,100;14999,600;18,13033
1564,15; 4568,500; 2284,800;14941,900;18,04284
1568,05; 4512,700; 2254,700;14763,000;18,05201
1571,95; 4495,600; 2299,800;14583,200;17,87616
1575,84; 4421,600; 2264,700;14396,200;17,77933
1579,73; 4385,800; 2278,600;14216,200;17,65179
1583,62; 4350,900; 2291,000;14037,500;17,53629
1587,50; 4257,800; 2227,300;13824,900;17,50793
1591,37; 4331,100; 2341,500;13765,300;17,41627
1595,24; 4240,000; 2290,900;13552,200;17,30795
1599,11; 4131,800; 2218,500;13299,400;17,26665
1602,96; 4098,500; 2233,800;13148,300;17,08461
1606,82; 4005,000; 2199,200;12931,900;16,82522
1610,67; 3993,200; 2259,900;12768,200;16,49458
1614,51; 3931,000; 2253,600;12662,100;16,11567
1618,35; 3819,000; 2200,500;12443,200;15,80150
1622,18; 3798,600; 2259,000;12320,000;15,30265
1626,01; 3741,400; 2261,500;12204,900;14,88324
1629,83; 3666,700; 2264,200;12060,300;14,31692
1633,65; 3613,100; 2285,600;11926,300;13,76975
1637,46; 3487,900; 2232,700;11710,000;13,24428
1641,27; 3404,600; 2240,500;11611,900;12,42184
1645,07; 3317,200; 2223,100;11460,600;11,84411
1648,86; 3282,400; 2252,200;11293,600;11,39425
1652,66; 3231,500; 2239,700;11231,400;11,03017
1656,44; 3206,000; 2248,900;11068,200;10,85234
1660,22; 3231,900; 2279,900;10946,100;10,98521
1664,00; 3272,500; 2293,300;10899,400;11,37798
1667,77; 3262,700; 2255,400;10706,100;11,91972
1671,53; 3298,400; 2267,200;10535,100;12,47233
1675,29; 3274,300; 2218,100;10422,700;12,87327
1679,05; 3332,900; 2268,300;10347,700;13,17672
1682,80; 3315,200; 2250,400;10217,700;13,36463
1686,54; 3365,000; 2284,500;10131,800;13,76907
1690,28; 3357,200; 2278,500;10016,500;13,94029
1694,01; 3276,400; 2220,600; 9797,600;13,93427
1697,74; 3264,700; 2222,200; 9685,200;13,96891
1701,46; 3296,200; 2264,100; 9639,900;13,99306
1705,18; 3258,600; 2239,900; 9483,800;14,06287
1708,89; 3182,200; 2178,500; 9321,400;14,05172
1712,60; 3264,700; 2263,700; 9310,100;14,20584
1716,30; 3289,900; 2296,000; 9229,900;14,33392
1720,00; 3262,100; 2272,600; 9164,500;14,35743
1723,69; 3254,700; 2274,100; 9040,800;14,49155
1727,38; 3172,300; 2189,500; 8867,100;14,71786
1731,06; 3232,300; 2257,500; 8834,400;14,82157
1734,73; 3200,100; 2236,800; 8714,100;14,87194
1738,40; 3180,600; 2214,400; 8628,400;15,06392
1742,07; 3247,100; 2286,100; 8625,700;15,15869
1745,73; 3204,000; 2245,800; 8533,600;15,23903
1749,38; 3230,100; 2278,500; 8445,700;15,43002

